LabVIEW Measurement	
Writer_Version	2
Reader_Version	2
Separator	Tab
Decimal_Separator	.
Multi_Headings	Yes
X_Columns	One
Time_Pref	Absolute
Operator	labuser
Date	2023/05/22
Time	14:45:47.4232686999997809888
***End_of_Header***	

Channels	1	
Samples	700	
Date	2023/05/22	
Time	15:34:56.4150681499997889566	
Y_Unit_Label	Volts	
X_Dimension	Time	
X0	9.9999900000000004E+0	
Delta_X	0.007143	
***End_of_Header***		
X_Value	Voltage	Comment
9.999990	1.644333
10.007133	1.644970
10.014276	1.644333
10.021419	1.647519
10.028561	1.644970
10.035704	1.646245
10.042847	1.643378
10.049990	1.645608
10.057133	1.645608
10.064276	1.647200
10.071419	1.646245
10.078561	1.644333
10.085704	1.645608
10.092847	1.643059
10.099990	1.647837
10.107133	1.644970
10.114276	1.645926
10.121418	1.645289
10.128561	1.644970
10.135704	1.647837
10.142847	1.645289
10.149990	1.645926
10.157133	1.642741
10.164276	1.645289
10.171418	1.645608
10.178561	1.645289
10.185704	1.646245
10.192847	1.643059
10.199990	1.646245
10.207133	1.644970
10.214275	1.648474
10.221418	1.644652
10.228561	1.644970
10.235704	1.644015
10.242847	1.644333
10.249990	1.646245
10.257133	1.644333
10.264275	1.645608
10.271418	1.643378
10.278561	1.646245
10.285704	1.644652
10.292847	1.648156
10.299990	1.646245
10.307133	1.644970
10.314275	1.644015
10.321418	1.644970
10.328561	1.646563
10.335704	1.644970
10.342847	1.646245
10.349990	1.643059
10.357133	1.645926
10.364275	1.644970
10.371418	1.646882
10.378561	1.645926
10.385704	1.644015
10.392847	1.645926
10.399990	1.644015
10.407132	1.648793
10.414275	1.645608
10.421418	1.644652
10.428561	1.643378
10.435704	1.644652
10.442847	1.646245
10.449990	1.644970
10.457132	1.645608
10.464275	1.643378
10.471418	1.645926
10.478561	1.644652
10.485704	1.647200
10.492847	1.645289
10.499989	1.645608
10.507132	1.644333
10.514275	1.643696
10.521418	1.646245
10.528561	1.645608
10.535704	1.644970
10.542847	1.642741
10.549989	1.645608
10.557132	1.645926
10.564275	1.645926
10.571418	1.645608
10.578561	1.645289
10.585704	1.644333
10.592847	1.643378
10.599989	1.645608
10.607132	1.644652
10.614275	1.645608
10.621418	1.642422
10.628561	1.645289
10.635704	1.644652
10.642847	1.647837
10.649989	1.645926
10.657132	1.644652
10.664275	1.644970
10.671418	1.644970
10.678561	1.646882
10.685704	1.644652
10.692846	1.645926
10.699989	1.642741
10.707132	1.644652
10.714275	1.644015
10.721418	1.647519
10.728561	1.644652
10.735704	1.645608
10.742846	1.643059
10.749989	1.644015
10.757132	1.644333
10.764275	1.646563
10.771418	1.645926
10.778561	1.643378
10.785704	1.645289
10.792846	1.643378
10.799989	1.646882
10.807132	1.644015
10.814275	1.644970
10.821418	1.642741
10.828561	1.645289
10.835703	1.645926
10.842846	1.644970
10.849989	1.645926
10.857132	1.641148
10.864275	1.644970
10.871418	1.644015
10.878561	1.646563
10.885703	1.645608
10.892846	1.644015
10.899989	1.644652
10.907132	1.643378
10.914275	1.646882
10.921418	1.644015
10.928560	1.645608
10.935703	1.642741
10.942846	1.643378
10.949989	1.645289
10.957132	1.645289
10.964275	1.645926
10.971418	1.642741
10.978560	1.645289
10.985703	1.644015
10.992846	1.646563
10.999989	1.645926
11.007132	1.644015
11.014275	1.644970
11.021418	1.644333
11.028560	1.646563
11.035703	1.644333
11.042846	1.644652
11.049989	1.643696
11.057132	1.643378
11.064275	1.645608
11.071418	1.645289
11.078560	1.645289
11.085703	1.642422
11.092846	1.644970
11.099989	1.644970
11.107132	1.646245
11.114275	1.645289
11.121417	1.642741
11.128560	1.645289
11.135703	1.643378
11.142846	1.647837
11.149989	1.644652
11.157132	1.644652
11.164275	1.642741
11.171417	1.644015
11.178560	1.645289
11.185703	1.644015
11.192846	1.645926
11.199989	1.641467
11.207132	1.644015
11.214275	1.644015
11.221417	1.647519
11.228560	1.645608
11.235703	1.643696
11.242846	1.645608
11.249989	1.644333
11.257132	1.646882
11.264274	1.643696
11.271417	1.644652
11.278560	1.644015
11.285703	1.644333
11.292846	1.646563
11.299989	1.644652
11.307132	1.644970
11.314274	1.642104
11.321417	1.644652
11.328560	1.644333
11.335703	1.644015
11.342846	1.645608
11.349989	1.641785
11.357131	1.644970
11.364274	1.644015
11.371417	1.644652
11.378560	1.645926
11.385703	1.641785
11.392846	1.644333
11.399989	1.645608
11.407131	1.645289
11.414274	1.645289
11.421417	1.641467
11.428560	1.645289
11.435703	1.644015
11.442846	1.644333
11.449989	1.645926
11.457131	1.642741
11.464274	1.645608
11.471417	1.644970
11.478560	1.648156
11.485703	1.646563
11.492846	1.645289
11.499989	1.644652
11.507131	1.643696
11.514274	1.645289
11.521417	1.644333
11.528560	1.646245
11.535703	1.642104
11.542846	1.644970
11.549988	1.645289
11.557131	1.646882
11.564274	1.645926
11.571417	1.644333
11.578560	1.646245
11.585703	1.644333
11.592846	1.647519
11.599988	1.643696
11.607131	1.645289
11.614274	1.642422
11.621417	1.644970
11.628560	1.645926
11.635703	1.645608
11.642845	1.646245
11.649988	1.643059
11.657131	1.645289
11.664274	1.643696
11.671417	1.647519
11.678560	1.645289
11.685703	1.644015
11.692845	1.644652
11.699988	1.644015
11.707131	1.646563
11.714274	1.644970
11.721417	1.645289
11.728560	1.642422
11.735703	1.645289
11.742845	1.643696
11.749988	1.646563
11.757131	1.645289
11.764274	1.644970
11.771417	1.644015
11.778560	1.643696
11.785702	1.646563
11.792845	1.644652
11.799988	1.646245
11.807131	1.643059
11.814274	1.644970
11.821417	1.645289
11.828560	1.647519
11.835702	1.645608
11.842845	1.643696
11.849988	1.644015
11.857131	1.644333
11.864274	1.647200
11.871417	1.645926
11.878560	1.647519
11.885702	1.643696
11.892845	1.646245
11.899988	1.647200
11.907131	1.646563
11.914274	1.645608
11.921417	1.644652
11.928560	1.645608
11.935702	1.644652
11.942845	1.648156
11.949988	1.645926
11.957131	1.646563
11.964274	1.644015
11.971417	1.645926
11.978559	1.648474
11.985702	1.645926
11.992845	1.645926
11.999988	1.644652
12.007131	1.646245
12.014274	1.647837
12.021417	1.645608
12.028559	1.646245
12.035702	1.644015
12.042845	1.645926
12.049988	1.647200
12.057131	1.645608
12.064274	1.646245
12.071416	1.642422
12.078559	1.645926
12.085702	1.645926
12.092845	1.647200
12.099988	1.645608
12.107131	1.645289
12.114274	1.645608
12.121416	1.644333
12.128559	1.648474
12.135702	1.645289
12.142845	1.645289
12.149988	1.643059
12.157131	1.644333
12.164274	1.646882
12.171416	1.645289
12.178559	1.646882
12.185702	1.643378
12.192845	1.646563
12.199988	1.647200
12.207131	1.646563
12.214274	1.646563
12.221416	1.643378
12.228559	1.645289
12.235702	1.645289
12.242845	1.647519
12.249988	1.647519
12.257131	1.644333
12.264273	1.646563
12.271416	1.646563
12.278559	1.649430
12.285702	1.645926
12.292845	1.647519
12.299988	1.645289
12.307131	1.645289
12.314273	1.647200
12.321416	1.645608
12.328559	1.646563
12.335702	1.644333
12.342845	1.647200
12.349988	1.647200
12.357131	1.646882
12.364273	1.647519
12.371416	1.644652
12.378559	1.646563
12.385702	1.646245
12.392845	1.647519
12.399988	1.646563
12.407130	1.642741
12.414273	1.646563
12.421416	1.645926
12.428559	1.648156
12.435702	1.646882
12.442845	1.644333
12.449988	1.646245
12.457130	1.645608
12.464273	1.648474
12.471416	1.647200
12.478559	1.645926
12.485702	1.645608
12.492845	1.645926
12.499987	1.649430
12.507130	1.646563
12.514273	1.646563
12.521416	1.644652
12.528559	1.645926
12.535702	1.647837
12.542845	1.646245
12.549987	1.646882
12.557130	1.643696
12.564273	1.645926
12.571416	1.647519
12.578559	1.645926
12.585702	1.646563
12.592845	1.643696
12.599987	1.645926
12.607130	1.645926
12.614273	1.645926
12.621416	1.645926
12.628559	1.644015
12.635702	1.645926
12.642845	1.644970
12.649987	1.647519
12.657130	1.646563
12.664273	1.644970
12.671416	1.646882
12.678559	1.644652
12.685702	1.648474
12.692844	1.644333
12.699987	1.645926
12.707130	1.644652
12.714273	1.644652
12.721416	1.647519
12.728559	1.645608
12.735702	1.645926
12.742844	1.643696
12.749987	1.646245
12.757130	1.646563
12.764273	1.646882
12.771416	1.646882
12.778559	1.643378
12.785702	1.646245
12.792844	1.645289
12.799987	1.648156
12.807130	1.645926
12.814273	1.645926
12.821416	1.646563
12.828559	1.645289
12.835701	1.649749
12.842844	1.646245
12.849987	1.646563
12.857130	1.644652
12.864273	1.645608
12.871416	1.648474
12.878559	1.645289
12.885701	1.646245
12.892844	1.644015
12.899987	1.645926
12.907130	1.649430
12.914273	1.645926
12.921416	1.647837
12.928558	1.644970
12.935701	1.645926
12.942844	1.647837
12.949987	1.645608
12.957130	1.646563
12.964273	1.643696
12.971416	1.644970
12.978558	1.647200
12.985701	1.646245
12.992844	1.647200
12.999987	1.643378
13.007130	1.646245
13.014273	1.647519
13.021416	1.646882
13.028558	1.648474
13.035701	1.643378
13.042844	1.646882
13.049987	1.645926
13.057130	1.648156
13.064273	1.647519
13.071416	1.644333
13.078558	1.647200
13.085701	1.645289
13.092844	1.649111
13.099987	1.645926
13.107130	1.645289
13.114273	1.645289
13.121415	1.644652
13.128558	1.647519
13.135701	1.645926
13.142844	1.645289
13.149987	1.644333
13.157130	1.644652
13.164273	1.648156
13.171415	1.645608
13.178558	1.645608
13.185701	1.644652
13.192844	1.645289
13.199987	1.648156
13.207130	1.645608
13.214272	1.646882
13.221415	1.644970
13.228558	1.645289
13.235701	1.648793
13.242844	1.645289
13.249987	1.646563
13.257130	1.644333
13.264272	1.645608
13.271415	1.647837
13.278558	1.645289
13.285701	1.646882
13.292844	1.645289
13.299987	1.646563
13.307130	1.649430
13.314272	1.647200
13.321415	1.647200
13.328558	1.644970
13.335701	1.645608
13.342844	1.648474
13.349987	1.645608
13.357130	1.646563
13.364272	1.644970
13.371415	1.645926
13.378558	1.648156
13.385701	1.646245
13.392844	1.647200
13.399987	1.644333
13.407129	1.645926
13.414272	1.647519
13.421415	1.645926
13.428558	1.646882
13.435701	1.644015
13.442844	1.645926
13.449987	1.646563
13.457129	1.646245
13.464272	1.646882
13.471415	1.644015
13.478558	1.646563
13.485701	1.645608
13.492844	1.648156
13.499987	1.646882
13.507129	1.644970
13.514272	1.646245
13.521415	1.645289
13.528558	1.649111
13.535701	1.646882
13.542844	1.645608
13.549986	1.645926
13.557129	1.646245
13.564272	1.649111
13.571415	1.645926
13.578558	1.645926
13.585701	1.644970
13.592844	1.644970
13.599986	1.648474
13.607129	1.645926
13.614272	1.646245
13.621415	1.644333
13.628558	1.645289
13.635701	1.647837
13.642843	1.646563
13.649986	1.647519
13.657129	1.643059
13.664272	1.646563
13.671415	1.645926
13.678558	1.645926
13.685701	1.645926
13.692843	1.643696
13.699986	1.646245
13.707129	1.645289
13.714272	1.647519
13.721415	1.646563
13.728558	1.646245
13.735701	1.644970
13.742843	1.644970
13.749986	1.648156
13.757129	1.645926
13.764272	1.646245
13.771415	1.644652
13.778558	1.645926
13.785701	1.647200
13.792843	1.646563
13.799986	1.646563
13.807129	1.643696
13.814272	1.646245
13.821415	1.645289
13.828558	1.647200
13.835700	1.645926
13.842843	1.645289
13.849986	1.645926
13.857129	1.645926
13.864272	1.650067
13.871415	1.646882
13.878558	1.646882
13.885700	1.644652
13.892843	1.645926
13.899986	1.647200
13.907129	1.645926
13.914272	1.645926
13.921415	1.643696
13.928558	1.646882
13.935700	1.645289
13.942843	1.648156
13.949986	1.647200
13.957129	1.645608
13.964272	1.647200
13.971415	1.645926
13.978557	1.648474
13.985700	1.646563
13.992843	1.645926
13.999986	1.645608
14.007129	1.645289
14.014272	1.648793
14.021415	1.645608
14.028557	1.647200
14.035700	1.644652
14.042843	1.645926
14.049986	1.647200
14.057129	1.645289
14.064272	1.647519
14.071414	1.643378
14.078557	1.645926
14.085700	1.647200
14.092843	1.647200
14.099986	1.647837
14.107129	1.643059
14.114272	1.646245
14.121414	1.646563
14.128557	1.645926
14.135700	1.646563
14.142843	1.642741
14.149986	1.645289
14.157129	1.644970
14.164272	1.646563
14.171414	1.646563
14.178557	1.644015
14.185700	1.646882
14.192843	1.647200
14.199986	1.646245
14.207129	1.646882
14.214272	1.643378
14.221414	1.645926
14.228557	1.646245
14.235700	1.646245
14.242843	1.646563
14.249986	1.643696
14.257129	1.646245
14.264271	1.646245
14.271414	1.648474
14.278557	1.646882
14.285700	1.644970
14.292843	1.646882
14.299986	1.645608
14.307129	1.649111
14.314271	1.646882
14.321414	1.644970
14.328557	1.645608
14.335700	1.645289
14.342843	1.648793
14.349986	1.645926
14.357128	1.645926
14.364271	1.644652
14.371414	1.644015
14.378557	1.647837
14.385700	1.645289
14.392843	1.646245
14.399986	1.644015
14.407128	1.645926
14.414271	1.646882
14.421414	1.646563
14.428557	1.647837
14.435700	1.643378
14.442843	1.645608
14.449986	1.644970
14.457128	1.647200
14.464271	1.646563
14.471414	1.644970
14.478557	1.646563
14.485700	1.644970
14.492843	1.650386
14.499985	1.646563
14.507128	1.646245
14.514271	1.645926
14.521414	1.645289
14.528557	1.648793
14.535700	1.644652
14.542843	1.646245
14.549985	1.644652
14.557128	1.645289
14.564271	1.647519
14.571414	1.647200
14.578557	1.648474
14.585700	1.643696
14.592843	1.646563
14.599985	1.646563
14.607128	1.645926
14.614271	1.647200
14.621414	1.643059
14.628557	1.645289
14.635700	1.644652
14.642843	1.648474
14.649985	1.645608
14.657128	1.646245
14.664271	1.645289
14.671414	1.645926
14.678557	1.647200
14.685700	1.645926
14.692842	1.647837
14.699985	1.643059
14.707128	1.646563
14.714271	1.645926
14.721414	1.647200
14.728557	1.646563
14.735700	1.643696
14.742842	1.647519
14.749985	1.645608
14.757128	1.649749
14.764271	1.646245
14.771414	1.645608
14.778557	1.645608
14.785699	1.645608
14.792842	1.648793
14.799985	1.645608
14.807128	1.647200
14.814271	1.645608
14.821414	1.645289
14.828557	1.648793
14.835699	1.645926
14.842842	1.646245
14.849985	1.643696
14.857128	1.645608
14.864271	1.647200
14.871414	1.645289
14.878557	1.646563
14.885699	1.643059
14.892842	1.646245
14.899985	1.647200
14.907128	1.645608
14.914271	1.646245
14.921414	1.642741
14.928556	1.644015
14.935699	1.645926
14.942842	1.644652
14.949985	1.646245
14.957128	1.643059
14.964271	1.644652
14.971414	1.645926
14.978556	1.644970
14.985699	1.646245
14.992842	1.643378

